Archivo de aceleraci�n parte de la Red Nacional de Aceler�grafos (RENAC) Ecuador

Evento: 201604162358
Fecha del evento UTM (aammdd):                  2019    6   11
Hora del registro UTM (hhmmss): 23   58 45,00
Estaci�n:                                      APED
Componente:                                        N
Frecuencia de muestreo (Hz):            1,000000e+02
Unidades: cm/s^2
_____________________________________________
302,2972 312,6611 282,5824 207,0477 115,8988 49,3591
7,6070 -15,5819 -14,6807 23,2033 100,9631 170,1893
192,1490 146,4371 46,9952 -43,8050 -121,7802 -193,7055
-236,3506 -239,6472 -227,1268 -226,8348 -254,7632 -278,7722
-213,8421 -106,7453 -32,7112 34,2485 113,1203 190,4430
241,6910 265,3946 247,6886 199,8958 159,4478 125,6381
93,9769 57,2698 34,7937 41,8240 45,5046 35,3372
18,4999 -9,4727 -51,2328 -108,6811 -189,4680 -294,3604
-367,4789 -356,6699 -292,2913 -205,0274 -102,7133 5,0323
102,6384 164,9451 190,1888 186,1541 176,0931 174,2384
145,7701 69,7245 -35,9276 -133,8140 -218,6717 -296,3764
-313,0740 -253,8836 -150,2682 -36,4449 64,4218 128,4877
143,0954 157,6471 139,0156 87,3602 41,9898 4,8953
30,5679 27,1280 -18,0891 6,5931 40,9174 43,2272
25,8168 -8,3849 -31,5703 -46,1978 -29,8841 40,4920
95,4720 105,0347 135,2747 192,8978 217,9929 206,7179
161,6890 111,5044 64,2983 -9,8755 -52,1196 -73,6125
-119,8156 -169,0494 -180,5623 -157,4203 -136,7303 -75,4834
19,5660 92,0338 138,8678 118,3329 51,4480 2,5206
-57,5458 -82,6453 -59,2265 -67,6582 -94,7350 -112,0156
-114,7391 -106,6327 -94,5656 -57,5737 6,7355 72,2073
145,2771 248,3878 353,2739 429,8116 457,4237 430,7345
386,2428 342,2071 314,8681 273,6793 209,9973 134,7312
56,1379 32,4667 -1,9828 -49,3529 -65,1953 -72,0787
-60,2684 -51,5303 -38,8440 -23,2215 -20,1070 -47,2504
-111,2181 -186,7564 -231,4157 -223,0534 -214,5451 -232,4088
-256,0267 -264,3972 -234,1932 -167,5751 -76,5946 31,7737
110,4725 138,1720 150,8898 169,4935 191,6595 188,3449
139,1516 59,9824 -19,3842 -81,7369 -117,3752 -123,1213
-112,6907 -86,8477 -65,3647 -71,5217 -84,5838 -76,4820
-31,6145 34,9775 92,3186 123,4147 130,5252 134,8808
142,1175 137,6087 121,7673 105,5483 82,3386 52,1995
43,4137 68,9989 96,3668 95,1294 66,9892 30,4029
11,2910 14,1181 34,7305 65,2220 93,1918 112,7787
107,5183 84,6520 69,6081 64,1730 56,6614 42,0862
28,1247 11,6308 -20,1259 -64,3491 -115,3520 -163,3259
-195,5170 -216,4566 -245,1510 -288,3278 -318,2038 -290,4042
-210,4960 -127,5850 -79,4182 -90,7671 -129,2711 -169,9399
-207,2183 -248,5179 -300,8393 -323,3325 -314,9811 -249,5805
-152,0257 -84,1387 -27,1842 9,0407 18,0032 15,6835
-3,7402 -37,0506 -73,9731 -112,2591 -118,9163 -78,4971
-19,1337 32,0539 71,6025 119,4737 167,4846 201,0113
202,4019 162,0855 112,9994 84,8746 106,1394 164,2078
203,4734 219,6645 224,6536 217,1024 205,2542 187,0714
159,7189 131,5724 121,1752 125,3649 108,4204 62,0713
8,4171 -38,2483 -94,7802 -175,2417 -249,4111 -283,9462
-270,7381 -229,7503 -172,9373 -102,1250 -36,2161 18,5628
62,0425 95,8017 111,7666 86,2128 20,6969 -50,1091
-87,2109 -86,7234 -68,0486 -49,5017 -37,4138 -17,2196
12,5824 41,2066 62,8202 76,4185 81,7879 75,4038
68,2824 70,9518 74,9973 70,0299 54,7986 34,3385
8,3458 -10,2812 10,3699 59,1568 99,8093 121,0868
118,9077 95,9909 59,4028 21,5125 -8,6221 -22,0645
-10,2479 14,0081 37,8883 59,4974 79,8151 94,4976
97,5419 82,7774 55,0653 20,9853 -33,4071 -90,6130
-115,1970 -99,9540 -36,1323 56,2432 130,0250 163,0984
168,5065 176,7922 161,4339 98,5017 27,0702 -34,5021
-101,5375 -182,5370 -244,2391 -265,3498 -271,4681 -272,7560
-246,6985 -192,2809 -143,9140 -93,0823 -9,0718 94,6661
160,7724 167,8126 163,2326 157,2459 138,8135 118,0038
91,5624 48,1692 -18,8869 -101,5339 -173,6890 -204,6310
-169,1884 -79,1290 12,2823 93,3792 163,4706 195,0489
177,0148 105,6590 10,0247 -79,7202 -147,6306 -179,3170
-182,8164 -172,3732 -168,2899 -169,2848 -159,9645 -142,6406
-135,8122 -138,5122 -114,2247 -64,7998 -23,9643 4,8013
33,0100 69,9271 109,4486 124,8142 107,9814 67,2865
6,7831 -57,0251 -108,2812 -133,9845 -128,9144 -109,9476
-76,9958 -21,4878 37,5782 75,4082 87,0716 90,5115
99,8192 107,1298 101,9505 77,1764 37,5296 -0,9430
-34,0083 -65,2297 -92,9391 -102,5721 -76,8850 -25,8307
5,4132 -17,4396 -76,2523 -136,3592 -190,3758 -234,8864
-250,1555 -214,6399 -115,4747 16,1538 129,5770 210,5631
259,9339 293,8725 314,2497 290,2739 239,7144 209,0572
200,4299 187,7085 158,8023 140,0175 152,6813 181,6109
211,9500 232,9950 245,9382 258,3586 248,4913 203,1128
141,8569 86,0316 35,4739 -21,1219 -78,3495 -131,5766
-172,1561 -173,6873 -128,1538 -48,6087 38,1478 114,3151
166,3886 164,5150 124,1977 51,2792 -54,5324 -123,1755
-150,0883 -192,9677 -240,9579 -275,5723 -296,6461 -295,5881
-283,1064 -240,3757 -157,8170 -73,4073 -4,1991 59,4721
103,8286 80,8767 8,0736 -71,2254 -150,7119 -207,4014
-238,8427 -258,4800 -269,2161 -264,3235 -230,5670 -178,4150
-113,3623 -28,9372 75,4081 190,0498 290,3181 359,6047
381,8861 354,3696 298,4551 220,1690 127,4718 47,1229
-18,1840 -82,4518 -132,9816 -154,4573 -135,0805 -59,9360
30,8777 87,5952 113,3841 132,1157 129,8122 67,9443
-21,0291 -97,5840 -150,9363 -167,0445 -166,6101 -152,9388
-119,3842 -104,5927 -107,7505 -79,4283 -14,6846 53,0077
84,2625 88,1251 93,3034 70,3361 15,8374 -24,3095
-32,2897 -13,1688 21,0816 49,2515 78,6759 118,3750
146,6638 159,1302 169,9546 183,0420 183,6656 160,7200
107,2595 29,1032 -39,2182 -85,1663 -120,8243 -154,1789
-177,4246 -167,9520 -125,9783 -75,3629 -26,4779 18,8754
57,3731 96,0007 122,5340 105,7860 48,2944 -18,3346
-71,8077 -110,9588 -150,4614 -191,8403 -214,7157 -212,2707
-182,7625 -135,9538 -97,9445 -52,9031 6,9524 53,2258
75,8965 89,8878 113,4589 120,4702 94,4533 58,4978
24,3178 -4,6533 -20,9472 -5,1130 31,0966 60,9338
95,0553 137,5238 172,0472 194,0610 206,9158 201,1274
168,4469 126,0838 92,8699 66,0707 37,5925 4,7634
-31,7905 -71,3084 -110,5560 -141,6305 -155,2838 -151,9502
-128,5161 -78,2459 -21,1941 25,5614 60,1822 84,0948
96,8901 73,5579 16,2132 -46,0638 -108,3868 -162,2366
-209,1841 -250,5216 -263,3647 -231,0690 -159,5681 -75,7487
-4,4659 30,9083 18,4923 -29,3401 -87,1616 -131,5280
-160,2098 -170,2141 -144,8244 -94,7299 -49,5380 -11,6837
24,7828 59,0178 91,1918 124,0092 146,5295 141,1069
119,7700 95,6005 64,1448 17,6939 -37,5348 -74,9295
-82,6042 -70,0450 -38,0900 10,8789 55,9699 82,0806
94,1198 104,8153 109,4241 100,5769 90,1284 79,4527
63,7419 48,8017 41,9841 47,8996 69,2546 108,3751
148,5860 178,0059 203,5362 220,8773 218,0655 180,7213
103,6365 4,0189 -81,4624 -133,9991 -171,3785 -205,0079
-229,5595 -244,6637 -257,7727 -276,0357 -290,9524 -291,5436
-286,1625 -268,8350 -224,1802 -171,8552 -135,3032 -112,3521
-95,5302 -79,5590 -58,7709 -29,8223 6,5450 51,8739
101,4898 148,5094 194,8468 239,4385 280,8976 314,8200
334,5221 330,2576 299,1272 259,6427 228,4888 207,8251
197,5098 200,0440 207,6394 212,2428 213,7334 213,3296
213,6910 209,6960 191,4339 150,0442 89,3172 17,3604
-63,4338 -146,0925 -218,2954 -266,4414 -296,6986 -317,9175
-330,5308 -334,3970 -333,2191 -331,4852 -300,2719 -243,6355
-200,1523 -166,4751 -135,2266 -110,3794 -105,4147 -127,5853
-148,5203 -147,4154 -121,8626 -67,4973 1,6397 75,7117
155,9209 235,8400 311,1421 365,2380 374,7763 342,1941
295,7179 251,0064 206,3416 169,8464 153,9563 157,7999
171,1243 175,9232 160,6640 141,8900 134,3208 124,6959
100,1984 67,8297 31,0434 -13,8196 -65,7526 -114,4529
-139,8444 -148,4293 -158,4688 -172,1094 -181,9479 -177,9988
-175,5692 -183,5980 -193,0283 -199,7395 -208,6696 -207,9531
-185,1796 -166,5995 -151,7791 -131,3659 -109,6053 -79,6168
-43,6469 -4,7598 25,3189 44,6876 64,5556 75,0592
70,1296 44,0712 6,5350 -12,6652 -22,7894 -25,9643
-19,6487 -17,4128 -15,7365 -24,7134 -43,3612 -63,9556
-95,3600 -135,0104 -172,7556 -193,2365 -193,7997 -178,9712
-141,7244 -97,0479 -63,9475 -42,7538 -25,7426 -3,9172
14,5891 34,0002 63,5499 97,8363 134,6046 170,1176
199,1428 216,7289 224,8857 223,6141 211,2829 191,6114
175,1175 173,8801 179,0855 176,8550 168,0304 152,3962
122,3563 87,8842 67,1330 60,9273 59,3070 56,0842
49,5135 30,5684 3,0068 -23,5392 -41,0893 -48,9695
-67,5235 -94,0803 -104,0954 -102,2948 -118,7670 -155,5949
-179,7436 -169,8475 -149,3053 -149,4414 -157,6749 -151,5430
-138,8685 -136,3505 -139,0370 -128,3415 -108,1797 -86,2903
-49,5012 -14,2550 -4,8545 -12,1552 -24,2431 -31,7699
-48,3404 -73,9617 -79,3023 -75,0702 -73,4544 -60,2382
-28,5427 -0,5828 5,4301 7,9931 11,7079 7,2694
-1,4858 7,6723 41,1296 68,0243 73,4550 69,2130
69,9358 68,2154 53,5626 48,2284 61,0697 77,1535
87,1659 81,8686 48,6592 -6,9462 -51,0603 -66,7503
-73,9113 -84,8583 -79,2005 -37,5097 25,7622 77,5320
101,4329 102,7334 84,6272 43,5791 -8,1421 -51,8191
-87,2077 -126,1885 -166,6608 -188,7837 -193,8007 -196,3989
-198,3446 -195,3553 -170,9830 -118,1137 -47,4780 29,3706
101,7402 160,5972 191,9294 187,0106 123,2295 -3,2206
-136,0640 -208,5291 -213,0171 -191,0583 -136,5975 -45,7837
36,6091 82,3895 109,6123 138,2508 141,0842 97,4694
14,7440 -91,2938 -195,1498 -263,6451 -284,8343 -285,5787
-269,9220 -205,7074 -97,3535 25,9712 144,1060 242,5673
314,2908 352,6390 366,8357 356,2077 323,6958 287,8701
242,6277 182,2568 117,6600 53,7843 -4,2246 -30,6462
7,6299 99,9279 178,5645 191,4482 160,7567 131,9973
92,9543 33,7487 -14,0189 -29,4530 -13,9405 6,5755
18,3939 44,7965 79,4804 86,2413 74,8878 49,7388
-0,1512 -63,2789 -117,6686 -138,3215 -152,7057 -186,2558
-198,3752 -159,2962 -107,4047 -75,6714 -38,7093 7,1657
38,3367 39,7498 4,1746 -52,9033 -110,3066 -146,5477
-143,9613 -118,1868 -85,3522 -25,6824 56,0508 125,7781
173,6799 211,7208 226,5988 164,7319 63,0072 -14,9337
-86,1624 -149,0801 -178,2081 -113,6546 36,9155 173,7151
251,0170 287,4285 329,1102 366,9005 357,1873 298,5088
206,7804 113,3991 52,6379 25,3593 14,0942 12,7757
26,2884 37,2750 28,9217 19,2752 9,3457 -16,2855
-48,1468 -74,5503 -98,7099 -99,1929 -50,3989 6,2005
11,3915 -10,0059 1,8792 9,9838 -46,6508 -136,1109
-211,5005 -273,2908 -328,0536 -363,4629 -369,9912 -333,5671
-267,7953 -201,3294 -124,0356 -28,3085 64,9475 96,1626
84,2928 104,5546 96,9304 25,9162 -37,1764 -73,2030
-103,1123 -134,7294 -136,5831 -83,7291 -14,8941 39,2108
83,9206 124,8002 165,4789 201,3055 217,1721 212,8626
183,6400 129,9029 93,1372 92,6857 116,1658 154,9330
199,5563 237,7097 251,8776 248,1656 234,0013 185,1396
91,0419 -24,0377 -151,9172 -299,9431 -426,1022 -492,7744
-491,0216 -398,4829 -263,0910 -150,0742 -60,3879 0,6409
38,1104 41,3872 -12,8474 -97,3581 -172,8207 -217,0240
-248,1120 -281,9460 -288,9043 -265,0043 -212,7433 -145,0329
-89,4978 -39,8719 -25,7699 -37,8280 -34,8576 -20,1707
10,1586 51,3374 130,1417 229,4448 290,6836 313,9852
309,3295 297,0803 298,8025 312,6433 318,3497 307,3081
285,1420 247,4851 202,0535 162,1426 132,3703 118,8630
121,8433 140,8146 180,0334 219,2440 218,9547 185,3964
164,7074 153,8326 111,2848 36,8163 -37,7253 -91,9428
-128,6517 -176,3444 -237,0101 -273,8235 -285,8168 -300,2379
-313,5361 -306,8068 -296,8484 -309,5437 -334,3801 -343,8049
-333,3320 -333,5870 -342,3675 -295,5309 -184,1886 -85,2685
-40,0450 -4,4753 68,3945 139,4367 167,1713 188,1460
219,8586 227,9127 203,2710 186,8924 191,1425 186,9159
165,1175 135,0505 120,5681 115,6015 101,7266 89,9460
79,5848 69,6274 72,3941 102,0113 147,1131 176,4519
187,6233 196,8796 200,5646 175,5931 115,2068 45,0415
0,9148 -18,3557 -45,2819 -91,0560 -142,0932 -168,9762
-172,3738 -180,2710 -184,5662 -161,4791 -121,1203 -83,2876
-47,3403 -33,4004 -48,1189 -54,2742 -37,0539 -35,5886
-76,7809 -108,9639 -108,7828 -126,4600 -160,7266 -161,5719
-124,0817 -83,6662 -40,7723 21,6390 75,3077 94,0194
89,7477 85,8959 65,3331 -0,2270 -59,7265 -61,2531
-30,3102 -4,7601 19,7726 59,3617 98,1019 120,1526
131,3285 142,0366 145,5270 125,7527 85,4516 32,3814
-16,0414 -35,6219 -33,0787 -39,0465 -55,4890 -58,3251
-49,1391 -37,7947 -23,5674 -7,6061 10,6217 12,0690
-16,6533 -48,1947 -68,9062 -93,1919 -134,9854 -185,4845
-215,3154 -220,7893 -206,5827 -171,8394 -131,2220 -91,9510
-63,6360 -54,0066 -42,6685 -30,5076 -39,2151 -61,7083
-78,6474 -86,5474 -90,1450 -84,0970 -63,3043 -25,2139
32,3336 85,6030 112,5329 129,4566 148,6686 150,7107
121,3890 86,2167 73,2925 69,2416 51,0471 22,5140
2,1900 -4,0157 -0,5668 9,8034 27,0876 50,0612
69,7940 81,2168 82,0324 71,8001 52,3611 18,6010
-13,0891 -28,2870 -44,6521 -74,3982 -109,4344 -133,2614
-139,7609 -134,3366 -119,9785 -85,3244 -27,7139 34,2594
90,0559 135,1901 159,7741 157,0489 132,6586 95,1720
54,4672 23,3070 2,3134 -19,9797 -43,4345 -48,7084
-33,0238 -14,9303 2,6847 30,8637 54,1193 53,1812
46,3536 50,2054 59,1057 58,7182 48,7391 45,2001
44,8297 44,8351 51,7446 52,9018 47,4017 53,3073
65,6133 62,5041 50,9326 57,3429 69,0523 70,4879
78,2005 95,5874 107,3671 100,7180 85,4903 72,1885
52,4349 23,2926 -2,1899 -8,8760 -0,9490 13,1450
26,4901 30,8429 34,9659 56,4390 86,3203 106,0865
120,0768 130,0523 127,4063 113,5899 104,8924 91,0877
65,1519 52,1285 54,8871 59,1877 43,2877 21,5929
37,0513 75,8429 96,8365 92,9018 80,3093 58,0711
20,2303 -20,3646 -50,0008 -68,1727 -79,3062 -74,8813
-53,1784 -30,0580 -15,3971 -3,6400 -2,8505 -18,6901
-31,7567 -43,0903 -62,7925 -83,0733 -88,7608 -75,7528
-61,9814 -45,6002 -4,9774 42,6244 69,1613 83,3553
106,5857 131,0598 123,0454 85,2289 55,4143 43,6463
32,0631 20,4511 23,7432 29,1874 23,0321 25,2698
44,6593 64,6390 73,4628 70,6934 60,7675 39,5143
4,0221 -30,9808 -54,3311 -76,7657 -105,7855 -131,4312
-147,0806 -158,3367 -175,0379 -196,7705 -213,3662 -209,0891
-188,6731 -171,7313 -157,4688 -146,8022 -147,2888 -157,9240
-177,1476 -203,1366 -226,3598 -238,6883 -237,9124 -226,0246
-203,2655 -167,6092 -128,7672 -96,6194 -67,6906 -39,7820
-23,1241 -19,7464 -16,9698 -11,1065 -9,6790 -16,6147
-21,4875 -15,2503 -5,8985 1,5419 11,0767 23,2898
31,4367 33,7952 35,3570 35,5616 35,5805 38,5662
43,8157 47,5422 46,0904 42,8109 41,8177 41,1878
41,5861 48,5687 63,6819 81,4492 100,1430 114,6677
114,9732 100,8982 72,2984 39,7125 16,9841 7,9774
9,7321 5,5288 -8,5264 -25,3438 -37,8634 -32,1858
-5,8732 28,5177 57,9827 77,6389 85,2874 71,9207
41,0066 11,7021 -14,0481 -41,1095 -67,4068 -90,5687
-100,7514 -92,7361 -63,0783 -16,3002 18,3566 25,2427
25,3905 38,3904 56,2226 69,0964 75,6553 75,4445
66,8091 43,0524 6,9798 -29,9030 -59,3716 -76,9578
-84,2062 -83,5068 -71,4946 -47,8190 -27,6455 -32,2408
-66,3470 -110,9071 -139,2240 -147,3024 -149,2742 -151,7751
-146,0064 -124,4532 -96,1499 -73,7351 -63,8101 -63,9326
-72,4040 -88,2724 -105,3007 -117,7942 -115,3240 -83,7925
-31,6757 16,1342 55,5079 95,5486 133,4777 157,3173
167,9263 176,7743 184,4436 186,4722 186,7922 191,3189
203,1491 217,5341 220,7496 206,7944 181,8121 155,2193
132,0880 108,3826 77,3505 52,1726 47,2646 41,3932
20,8042 5,4702 5,2782 9,0029 13,6333 25,5581
39,7530 48,8165 53,9344 53,2540 40,5587 21,7685
14,4165 21,9163 24,2892 6,4093 -21,7535 -53,3101
-85,7833 -103,4109 -106,2416 -92,9371 -51,5537 2,5665
43,9490 54,0425 29,4234 -23,7785 -90,7012 -145,2963
-180,0766 -202,7537 -228,1542 -249,8264 -246,5064 -213,9999
-175,8860 -161,0008 -153,4117 -145,3414 -141,2157 -145,3937
-161,5541 -173,3032 -180,7345 -179,0763 -166,7108 -143,1983
-104,8808 -65,2421 -29,2137 1,3426 25,2111 33,9781
16,8677 -19,7898 -59,9953 -92,3856 -113,2314 -118,0997
-104,3951 -74,6102 -39,5677 -5,4056 30,9040 63,9837
85,1297 92,4979 97,1382 108,8557 119,0547 125,5839
137,2221 158,0977 183,3504 205,3011 223,1729 233,1087
229,3183 214,4474 202,0991 207,3468 228,2792 250,3623
267,9809 285,2589 301,0895 306,6382 295,6417 270,7116
245,1083 230,9972 224,1363 211,8925 185,7314 140,6728
82,3206 25,1065 -26,7102 -73,3674 -115,9684 -155,2538
-188,6255 -201,5011 -192,8378 -185,5218 -185,8705 -194,0454
-196,4588 -197,7529 -196,4426 -191,1210 -220,7517 -255,3392
-270,0757 -271,7538 -249,9770 -221,1438 -179,7414 -129,1188
-96,6114 -86,5161 -91,5998 -103,4092 -119,0785 -133,7763
-138,9609 -143,5030 -159,2777 -174,6226 -185,3623 -187,7955
-159,2191 -105,2089 -43,2771 19,7930 76,9638 127,9847
164,7215 179,3823 170,1396 137,3915 88,6731 29,1052
-28,3585 -74,2993 -108,9706 -126,7550 -123,3511 -100,6497
-71,7002 -44,6226 -14,6457 20,3896 52,4491 73,4220
88,7461 103,5079 109,5397 93,7532 60,9232 36,0436
38,1118 62,5877 102,4048 150,0138 189,0937 218,0216
242,7696 256,5229 210,3920 85,6658 -36,5198 -78,9829
-52,0233 -7,4298 50,5052 122,7153 177,3249 195,8771
186,2405 173,1045 150,1039 107,7075 63,4628 23,1968
-13,1750 -42,3218 -58,0812 -45,9086 -1,4187 46,7886
80,1144 111,4628 139,6328 146,3531 121,1355 74,5620
33,3093 21,3457 35,2243 48,8055 53,1394 58,4169
68,0778 70,1524 50,5881 12,0633 -34,5624 -84,6443
-132,8634 -176,1448 -212,3823 -234,8755 -239,8114 -227,3523
-202,6718 -169,0568 -138,9691 -117,0824 -95,4579 -86,2304
-84,6398 -83,2096 -86,8234 -95,6093 -111,8653 -115,6468
-102,6540 -86,0493 -65,6171 -37,3814 8,0142 54,6246
79,3213 88,4469 93,2512 93,6279 85,7388 78,5850
87,3474 109,4522 139,5561 177,5546 216,3615 238,6520
225,6502 177,0274 110,0074 46,4642 -7,8831 -56,8935
-94,2810 -103,3174 -74,0317 -28,6596 0,9956 -1,2971
-27,4574 -56,4762 -80,2077 -92,5696 -96,5114 -103,0930
-107,4918 -103,7166 -95,6337 -91,4854 -82,0119 -44,7497
12,2624 57,0290 67,4614 54,6660 34,5583 1,2947
-45,3184 -89,7398 -112,5322 -107,4746 -71,2155 -13,5382
32,9136 51,4938 53,5233 51,7578 37,8288 11,2071
-9,5017 -17,9956 -17,3900 -10,2804 0,2196 1,0532
-4,4433 2,6420 8,9234 6,1144 1,0820 -6,4214
-20,0864 -47,3623 -75,7206 -86,4207 -78,6504 -62,5612
-47,9085 -39,2344 -38,4116 -37,8699 -31,1442 -26,3525
-24,6231 -21,9357 -19,4808 -16,3311 -10,2813 -1,8108
0,6918 -3,3429 -6,0105 -3,2519 0,6251 -1,9136
-10,2894 -20,6163 -28,7822 -33,8938 -33,2576 -27,0212
-16,5195 -0,8285 13,8269 25,1875 35,4568 46,2920
54,8832 61,1790 69,0529 79,7682 88,2684 84,5221
71,0499 44,3535 12,1254 -11,0798 -21,4364 -6,1421
28,2813 66,3474 95,2933 107,4253 105,6527 102,4453
105,1831 97,8473 72,6964 39,9132 11,1196 -12,7930
-35,4025 -48,1798 -44,2938 -35,4863 -26,9987 -14,8225
-5,9096 -7,4425 -13,0039 -11,9765 -6,1619 1,6642
11,3909 18,0490 16,4791 7,1300 -3,7241 -11,3150
-15,2163 -16,2545 -19,5980 -32,7160 -55,8400 -84,4308
-110,8894 -128,4629 -138,1239 -143,4905 -138,5781 -116,8482
-88,7999 -64,7305 -48,0266 -38,3053 -28,1496 -16,4771
-5,4058 5,7421 14,5028 16,5836 11,1683 1,7984
-4,0639 1,0252 10,5212 15,2282 18,4627 22,7677
28,1407 34,6069 40,5413 47,3860 56,5576 66,9917
76,9546 83,0891 81,2182 67,4216 44,4859 21,1410
2,1914 -7,5480 -4,7020 6,1981 18,1022 27,3206
33,8390 37,3492 37,5908 38,1756 43,0196 50,6105
58,3284 65,7706 70,9579 72,2620 71,0859 70,9282
74,9007 79,4960 82,2942 84,6040 82,1464 73,0929
58,4528 37,1924 8,6629 -25,3342 -58,8402 -86,1729
-102,7578 -101,2663 -82,7060 -60,7679 -41,0152 -22,9704
-12,4226 -14,0655 -21,8664 -29,9836 -39,7734 -48,2889
-54,2729 -55,0209 -52,5291 -54,6884 -55,8004 -50,9231
-45,7033 -45,6330 -48,2141 -51,2530 -57,2036 -62,3405
-62,4306 -60,3479 -62,6064 -67,8784 -67,2701 -59,3737
-47,4670 -32,2844 -17,0197 -4,5795 7,6211 18,2526
22,0575 15,3841 -3,4538 -27,9676 -48,7242 -61,2591
-65,1514 -59,8036 -45,5249 -25,6956 -1,5118 24,4088
47,7095 67,7983 84,4877 96,3485 102,6389 105,3642
104,8541 95,5699 76,1353 52,5390 29,4005 9,0918
-6,3071 -13,0310 -12,4407 -14,8154 -25,2315 -41,7209
-61,5691 -84,2984 -108,8662 -128,2710 -136,7920 -130,1906
-103,2860 -65,2785 -33,8417 -14,9298 -7,9491 -10,7915
-20,2343 -31,5742 -38,2297 -36,0650 -21,0986 6,9064
41,1541 75,8478 109,2466 141,1241 167,4889 180,4816
177,1904 162,2889 141,1259 117,6440 96,6270 79,4878
63,5040 48,0438 36,3299 27,7765 20,9517 18,1670
19,2556 20,7372 18,4247 15,3651 14,1728 10,3859
4,2082 -1,4208 -5,7448 -12,5417 -24,5160 -34,5573
-38,2630 -36,3948 -27,6441 -11,3971 8,9449 28,8679
49,3037 68,7301 84,1515 91,4225 90,7619 90,0616
86,0044 78,3847 73,2803 73,2938 79,2994 85,4853
90,7835 98,0274 104,7594 104,0691 95,0354 84,3858
73,1505 57,6569 37,6835 16,1807 -6,0160 -26,3293
-43,1088 -55,0507 -61,2384 -62,6623 -61,0465 -59,5847
-59,8343 -64,1908 -63,1976 -70,3145 -80,2440 -76,0597
-90,9431 -94,4028 -81,9076 -81,2443 -55,5212 -20,3669
8,6700 28,5272 35,2872 48,5295 47,4174 22,7541
-1,0747 -14,9831 -23,7239 -19,8658 -2,8276 13,3932
26,1741 38,2557 49,9246 54,3486 48,4358 37,1355
23,2380 11,3448 4,7092 -1,3532 -6,4532 -10,4608
-16,0483 -20,8418 -24,9036 -26,2058 -22,4946 -17,3073
-11,7829 -5,3582 -1,4352 -3,5017 -12,7598 -26,2527
-40,3277 -51,8713 -60,8293 -68,3354 -69,6584 -65,3002
-59,0134 -49,1893 -35,8550 -25,5164 -23,7401 -30,3496
-43,1179 -59,8848 -77,5728 -91,7146 -101,2394 -106,1925
-103,7709 -94,5489 -85,3710 -81,2957 -82,9918 -86,9066
-87,5690 -82,7674 -72,2855 -56,3512 -32,5467 -4,4867
18,8689 34,2534 43,8531 51,9721 57,3415 62,5189
71,1633 77,1166 77,2311 70,6577 53,6780 29,7393
8,2815 -5,6836 -10,1427 -5,2492 5,6536 18,1894
29,0273 35,8963 36,0630 29,2049 16,8232 -1,1920
-21,1203 -32,4485 -31,5662 -22,9606 -11,3657 -0,3340
12,6929 26,1227 34,2534 34,5012 26,0777 11,6151
-5,7431 -19,9605 -30,9732 -37,7503 -35,9758 -29,5160
-16,3908 -8,5368 -13,3060 -16,6368 -17,6967 -11,4369
0,5068 14,1547 31,4209 44,1991 51,9333 52,7191
43,3628 25,5522 6,1087 -5,2231 -10,3158 -14,7308
-18,0905 -21,1519 -25,4399 -34,4663 -48,0205 -59,7218
-67,7641 -74,9774 -82,3177 -88,0107 -90,2556 -91,3541
-95,1617 -99,8327 -101,7487 -101,5107 -102,9428 -100,8925
-92,6113 -80,8875 -66,2844 -49,0172 -28,4481 -8,8351
9,9604 24,2977 31,4885 34,4174 31,4317 28,3009
24,8628 21,4887 24,0319 26,3228 28,4379 33,7550
38,6134 42,4499 48,7962 59,9441 72,2501 81,9164
91,3439 101,1968 108,0757 109,3176 99,9793 78,6937
48,1590 16,1049 -6,1324 -18,6087 -25,9860 -25,6093
-13,1285 6,5890 22,2349 28,2883 26,9473 19,5123
4,3035 -17,1938 -40,0755 -60,1499 -75,4650 -79,9972
-72,1044 -60,6230 -49,0380 -36,7149 -28,9654 -28,7032
-29,5891 -29,4070 -31,7646 -35,8389 -38,8670 -40,2440
-41,5048 -40,3441 -35,4595 -29,9162 -23,8583 -16,2890
-5,2420 10,4390 27,9134 43,5898 56,0031 64,0995
65,3648 60,0909 50,6805 36,1702 17,3575 0,6239
-8,7658 -10,9260 -7,1896 1,0835 10,8580 19,4898
24,0616 23,5443 20,6875 18,6832 17,6765 16,5464
15,9723 17,9424 23,3181 28,0422 28,9083 27,2717
23,0486 16,6131 11,8421 10,7760 13,0137 17,2169
19,8728 19,8710 20,5550 23,9327 29,1498 35,8277
43,8250 51,3537 55,6912 56,5402 55,3848 53,6428
50,5805 45,2814 39,0595 30,0780 18,6057 8,8816
1,9216 -3,6722 -8,9397 -11,8515 -12,1174 -12,7942
-13,0168 -10,4249 -4,0651 3,0310 9,1889 16,0543
21,2849 23,9552 25,5305 23,8669 16,5914 5,3678
-11,9750 -29,6819 -36,5671 -34,7593 -26,1690 -15,0734
-7,8871 -1,4976 3,1725 2,4506 -0,5784 -3,5704
-6,5065 -11,4424 -19,5028 -27,8939 -37,1746 -50,1934
-61,4098 -63,2970 -58,2673 -49,7743 -37,7099 -22,0442
-5,3367 9,0772 22,1888 32,9006 38,7945 40,8663
38,8197 31,0062 19,9836 10,4524 2,8724 -3,1180
-5,1159 -1,8283 5,9509 18,5768 35,3338 53,9708
73,6054 93,0075 108,5335 116,8336 115,7071 100,7669
73,3134 42,2884 15,4757 -4,6437 -21,4729 -34,9738
-41,6419 -42,9558 -42,4025 -39,9422 -33,2372 -24,3063
-18,1069 -16,8308 -18,8972 -23,7034 -34,2240 -47,8476
-58,3133 -64,3018 -67,7246 -67,4200 -61,0881 -50,5873
-36,6483 -21,4467 -7,7926 3,2013 12,1863 22,2996
31,7578 40,4599 51,8160 64,0174 71,6182 72,6465
69,0119 57,9992 35,5384 6,9647 -18,2403 -38,9212
-56,8687 -67,7481 -69,1864 -65,9871 -64,1504 -64,5317
-64,8471 -66,4981 -69,4387 -70,0452 -66,2593 -56,3415
-42,0348 -29,3269 -20,0472 -11,3577 -5,9839 -8,3811
-15,3771 -24,6100 -35,1046 -41,7050 -41,7915 -37,1341
-31,0077 -26,3818 -23,2357 -22,7463 -25,5779 -28,0508
-29,8289 -32,7713 -36,3365 -38,5391 -36,4113 -30,5264
-23,8052 -15,4105 -3,3586 10,4857 23,5108 35,9583
48,5337 60,6126 70,2303 77,2336 82,8661 86,2420
86,1862 83,7097 82,6462 84,4432 87,3686 90,9022
94,8666 97,8965 98,9653 95,6768 83,3068 64,0678
44,6820 26,3767 7,1539 -13,2557 -31,3285 -44,8286
-55,5494 -62,3120 -63,7296 -60,7124 -52,9656 -43,0460
-34,9514 -33,1463 -39,3060 -49,3328 -61,9642 -77,2000
-91,9744 -103,1025 -109,0072 -106,4027 -91,6770 -68,9954
-44,8466 -22,8112 -3,3893 14,4050 27,9321 35,5753
37,6165 35,9213 33,1150 30,1608 31,1341 36,2692
40,7960 44,2917 49,1051 54,8728 56,6500 51,8925
41,3114 24,1317 1,7521 -21,2278 -41,0382 -55,7639
-63,5936 -64,3533 -60,7376 -57,9917 -60,2970 -65,9286
-70,2553 -71,1628 -68,8314 -60,4132 -42,2809 -17,8249
6,5041 30,6934 57,7711 85,3579 103,6263 104,9763
88,9321 59,1274 24,3192 -7,3583 -29,6487 -39,6251
-39,4593 -31,4421 -17,3833 -1,0922 15,4233 31,7730
42,7110 43,0931 33,3736 16,8292 -4,7601 -27,0442
-45,3622 -59,0019 -66,1404 -65,7006 -57,9403 -45,6136
-30,6509 -13,8803 0,0695 5,4632 0,1650 -12,2672
-27,2750 -39,0709 -44,9656 -43,5796 -33,5978 -18,8171
21,2316 5,4335 0,1335 13,3335 16,8256 4,8513
-13,0413 -10,7143 -2,5070 -2,1412 10,1117 -1,0705
-12,2536 23,9713 9,8142 -30,3850 0,8130 16,8229
-12,2131 -15,6944 1,4646 3,3156 -7,6196 -13,2359
-14,1750 -8,7668 -5,8803 -22,5012 -14,6238 20,6395
8,4750 -8,1784 5,1189 -8,3135 -15,7809 -12,5051
-29,4847 -8,0594 33,1672 25,2519 17,2834 12,5179
-5,5414 13,8030 29,8021 11,6248 -3,3912 -23,7413
-44,5916 -29,9696 -0,7614 2,8452 4,9820 40,7905
64,6644 40,4976 32,8626 26,4235 -8,4478 17,6682
36,3557 -22,9933 -39,4512 -33,6546 -43,8788 -9,0751
-18,8802 -70,2256 -54,0534 -36,6015 -27,9716 -11,1388
-34,5306 -25,7609 22,6086 23,4260 18,9011 29,3587
2,9722 -15,4151 1,9133 11,3057 10,6208 17,7214
25,3609 32,5787 32,6517 12,5710 21,0279 63,2819
59,7654 19,6779 -1,8060 -20,2402 -28,6881 -11,7787
-5,4595 -3,8860 -4,4096 -23,8513 -15,9558 10,7037
-1,1517 -8,8101 -0,9039 -28,0527 -43,0632 -24,2758
-34,8839 -39,6513 6,7555 6,9493 -27,1083 6,9871
26,0855 2,3243 18,7091 22,6618 -15,5296 -15,4863
21,0225 26,2864 20,2916 26,0756 7,6008 -16,9048
-18,2449 -13,8957 -4,4564 24,3813 22,0589 -11,3101
0,5624 17,7115 -1,2481 5,0576 20,7035 -13,2711
-23,8775 19,8365 10,3828 -37,1847 -44,9197 -57,4240
-70,7195 -24,3929 25,6646 4,9945 -19,6625 -1,7033
-0,7624 9,0238 46,9466 51,5211 54,0697 95,1278
100,8712 70,7078 60,3106 31,1683 2,6397 6,0534
-14,8330 -56,4768 -66,4009 -53,9129 -42,9128 -34,5387
-32,2154 -5,5776 28,9134 24,6192 23,9000 15,6981
-34,8623 -43,9780 -17,7655 -59,2886 -96,9798 -78,3014
-81,9558 -59,3976 0,7588 9,5348 -4,5123 6,1588
11,1227 9,5203 7,2736 -16,0469 -7,6278 30,7465
19,9518 -0,9427 13,7993 -16,8616 -64,2633 -29,4704
-21,7020 -52,7783 3,6913 76,2232 87,9902 95,3756
88,0308 18,9677 -32,0577 -15,2439 -16,2262 -69,4065
-88,7986 -44,1853 -10,3540 -16,4488 -31,0637 -32,2155
-41,4655 -69,4020 -86,8358 -80,8076 -77,0965 -71,7676
-31,0547 -21,7128 -39,6666 -13,7452 1,4383 2,1503
30,0796 82,2108 103,4928 72,8986 51,1588 31,5792
25,2626 70,7474 100,0385 84,1997 108,5314 141,5697
131,1788 145,0871 165,3228 127,9786 53,8444 -0,7543
-65,8602 -122,6696 -80,0939 -31,9271 -50,7173 -63,8470
-65,6295 -88,7590 -84,6603 -61,8535 -81,8648 -84,9037
-62,6420 -75,0886 -88,2129 -59,0985 -29,7804 -28,7594
-0,4840 41,3807 33,5483 19,8247 33,1590 38,9276
54,9177 102,2617 114,3640 77,5497 76,6395 82,6929
35,2588 3,4399 9,9502 -1,9313 -14,0436 -9,5258
-15,0682 -28,8441 -45,4200 -32,7184 -5,6029 -3,8509
21,7461 78,2824 93,5912 73,8818 94,2527 116,0312
95,5225 59,6499 -20,5593 -99,6456 -148,5749 -210,2823
-189,4149 -62,6664 74,6073 195,9079 269,9340 267,6908
206,1087 141,6769 41,0508 -101,6337 -124,0485 -47,1341
18,3449 131,1634 229,4652 183,8912 112,1281 105,9125
25,8123 -187,9405 -275,5540 -232,7809 -245,1113 -95,1000
127,6072 206,7449 247,0910 264,7430 213,6536 69,1585
-119,7975 -289,3795 -377,5941 -338,4637 -239,5256 -125,0642
25,4076 144,4805 219,1879 259,2790 187,3798 56,4605
-33,9459 -91,5717 -106,3596 -74,6507 -60,8280 -26,1171
58,8028 117,7426 104,5904 67,6571 77,7335 63,1529
-14,8024 -80,5040 -116,5190 -167,6679 -211,2592 -153,9758
-65,8243 -34,8182 19,0577 53,7893 -16,0533 -72,5383
-56,3165 -65,1168 -82,8490 -66,4930 -61,0389 -22,5276
76,5565 121,9918 72,9364 40,9751 69,1026 44,5312
-20,7171 9,7158 47,8107 28,9530 45,2846 97,3510
139,4319 164,2485 211,2185 242,4192 217,3250 152,8329
35,9103 -88,0913 -147,4520 -140,5524 -90,3479 -9,7746
45,4649 33,4238 6,3678 10,9964 14,4183 -37,7229
-117,0831 -122,4832 -73,5972 -62,1248 -43,2265 21,4234
35,1163 -34,4362 -122,6256 -173,5762 -175,6048 -155,1772
-107,4754 -71,1901 -53,9013 -31,7767 -47,8876 -86,8170
-127,8030 -149,6185 -126,3701 -68,8316 50,3323 222,0627
357,4979 387,8784 348,5308 297,0539 217,0655 83,9626
-84,6595 -199,2886 -192,4944 -90,9229 48,4559 162,6605
211,6762 190,0545 80,5677 -138,4066 -346,9820 -403,6985
-355,2857 -273,5868 -201,9084 -181,8944 -161,9462 -128,1383
-123,1113 -148,6957 -197,7277 -234,3032 -234,1148 -211,3530
-189,1815 -156,9814 -77,2444 60,9782 217,2132 344,9756
413,0473 398,0801 308,3325 143,2052 51,8445 136,0217
198,9169 146,5658 87,8909 104,2551 122,4297 58,1781
-15,5911 -26,3362 -13,1884 3,7732 67,9355 142,2644
217,5530 282,9022 288,5825 210,9679 40,8614 -159,1705
-312,0044 -302,7922 -173,0572 -28,1638 164,5052 374,4955
496,5712 523,8273 520,0774 442,0581 261,9140 -59,4934
-437,2730 -623,9247 -560,3094 -453,3911 -435,9140 -371,0262
-246,6326 -65,3629 163,9221 299,7196 248,4950 65,4689
-64,1553 -148,2596 -250,7223 -344,3081 -335,6385 -189,5898
-22,1528 112,4416 211,1724 291,9855 268,0692 78,9302
-129,4424 -216,1024 -164,8355 -129,8074 -147,8531 -72,6051
86,8870 231,2207 304,6898 308,3919 252,5495 142,4238
39,9972 3,8759 2,2654 -35,1896 -78,5368 -109,5798
-143,6959 -136,7304 -100,8561 -70,3034 -36,7478 24,9245
47,0896 -21,7815 -78,1817 -134,9614 -253,9559 -357,2279
-386,1179 -401,5177 -416,5129 -418,6713 -423,5306 -401,1761
-327,1915 -161,3118 6,4948 150,1003 287,6101 354,5571
387,5269 342,4864 225,7746 65,9961 -44,8281 6,3334
71,9233 131,9815 231,3360 293,6418 309,0065 293,9329
257,6476 208,8283 92,7556 -145,5938 -453,0848 -693,5935
-687,6194 -476,5450 -230,9075 117,8308 486,1153 674,7497
797,0786 811,7998 627,5372 311,1973 -102,9641 -386,0728
-571,0131 -764,1021 -640,3529 -290,6792 -96,1843 -35,7601
-24,8114 -71,4209 -181,6674 -272,1783 -286,5670 -328,6245
-379,7599 -362,9560 -287,6664 -198,3848 -91,3178 65,7374
239,3423 378,1687 409,3667 461,3186 457,6642 374,4431
364,2847 328,9628 389,5438 406,2170 363,6386 385,9939
326,0213 258,4497 163,4498 28,2454 -39,0505 -71,4092
-104,2645 -200,8721 -399,8090 -454,8638 -369,4879 -419,2021
-342,8284 41,5994 247,3279 247,3576 265,3142 206,5546
5,1708 -395,8023 -663,6716 -565,8420 -418,1090 -363,3814
-280,5343 -235,0234 -293,2584 -354,2260 -355,6950 -322,5972
-326,5112 -316,0671 -248,5379 -122,6978 54,0965 179,8013
264,3922 303,2883 324,7487 371,0410 350,9009 322,9517
344,0760 377,3864 425,7930 486,3757 536,4251 504,0358
375,6138 260,1322 196,0501 143,2177 80,7037 19,9344
22,7921 68,9078 66,6431 -12,4207 -115,4629 -144,3674
-96,2258 -77,3248 -34,0326 71,8430 101,2440 42,4592
-62,1836 -150,7813 -190,2082 -229,2268 -234,5899 -210,0419
-235,7498 -324,7034 -411,1499 -445,7995 -441,8819 -406,0851
-315,8734 -209,7707 -147,3269 -117,6835 -73,9606 -50,7716
16,1998 133,5784 237,8417 367,6714 450,9474 595,2127
628,2130 707,0056 812,6901 632,0333 611,5903 394,2615
110,9860 48,1322 -112,2312 -186,4294 -220,6645 -190,1063
-169,8959 -178,1870 -200,3287 -240,9263 -206,8913 -111,2039
142,3201 318,6376 220,7296 -3,3672 -163,4288 -112,7332
33,8490 153,1922 146,7017 -17,5676 -36,7633 78,2443
70,6065 42,3933 44,3417 -20,8146 -155,0296 -311,4755
-459,9746 -522,3679 -410,4623 -270,4075 -253,6279 -280,4983
-268,9421 -229,1061 -162,7637 -32,0410 103,4041 166,1921
211,8554 250,1504 270,9367 300,1250 254,6970 98,9369
-33,8461 -73,1468 -67,2574 2,6816 151,2663 282,7398
321,0700 275,1183 226,4216 218,3143 202,1368 136,4784
17,8643 -96,2015 -188,2093 -310,3238 -477,5427 -649,9427
-664,6216 -443,1022 -189,1835 -7,2983 122,1997 37,4574
-229,5910 -406,1356 -461,8005 -459,3276 -394,6587 -278,0489
-136,9469 -41,9957 53,6656 183,3150 278,5249 319,2162
288,3768 236,5322 200,4749 166,0263 137,9690 132,3815
168,2396 214,9843 259,2192 322,0081 387,0491 418,3624
431,8859 441,3198 446,7198 427,0149 375,4722 341,9527
313,1564 309,3515 325,2632 327,9948 348,8343 363,4960
351,3928 278,7546 157,1323 12,4570 -144,6585 -264,2478
-362,0152 -415,8696 -408,8546 -373,9986 -360,6346 -398,0834
-400,2913 -429,9095 -575,8789 -637,7044 -529,3018 -404,6982
-325,2127 -274,6541 -253,1666 -213,9704 -146,6331 -118,9003
-92,3092 -20,5056 36,3975 66,3140 71,4563 40,6864
-25,0134 -90,5321 -106,3978 -120,2962 -140,7762 -135,0481
-65,4298 88,6477 231,0691 345,3232 442,1921 506,0048
534,0332 498,0913 432,6844 357,2795 279,1169 211,7102
145,6851 78,5686 -4,9616 -88,0060 -160,5333 -220,6673
-206,6066 -171,3028 -152,6766 -112,4224 -70,1441 -0,2897
33,9426 46,3198 91,7992 70,1594 12,1794 -11,9297
-29,1932 -27,9442 -24,9603 -39,2183 -27,2638 26,0994
129,8626 295,4720 439,6831 335,6820 10,9907 -145,2290
-73,1640 -28,6877 -37,6078 -11,0186 61,5295 118,3875
145,3048 204,7006 269,7398 253,7001 159,6601 71,5608
5,4095 -75,8415 -166,2470 -199,0005 -194,6377 -218,3151
-234,6324 -238,8987 -257,4095 -287,8676 -302,4699 -300,0060
-289,9773 -256,5308 -184,2567 -89,0731 -51,2025 -56,4088
-62,4775 -119,8240 -252,7575 -356,5819 -339,5122 -308,1412
-239,1475 -78,6803 37,3510 109,8954 180,0156 257,5393
327,1638 306,6082 220,3392 112,3611 12,6308 -64,7342
-138,0050 -171,5795 -131,7398 -52,5643 18,7473 118,2532
224,4082 292,3547 383,8056 492,0036 535,2723 485,9673
332,9297 56,6656 -209,3608 -338,7921 -364,9938 -258,6721
-70,1667 146,7719 350,5582 367,2378 252,1870 107,9794
-9,5073 -11,3061 10,4310 9,2414 27,5188 36,9841
8,1113 -14,0161 -15,6770 -34,2977 -74,6340 -156,9628
-220,9918 -253,8300 -296,0650 -294,3744 -236,0437 -143,8025
-59,5577 32,4033 109,3276 123,8668 119,3094 101,6070
71,3426 1,1260 -82,6322 -96,5504 -74,4537 -81,1281
-120,7622 -111,8466 -21,5493 48,0897 78,4108 94,9425
81,8633 68,8139 78,4739 80,2952 64,2799 51,8865
42,8735 27,5196 3,6566 14,1980 60,5660 63,1786
10,7590 -47,2544 -82,7475 -105,8383 -152,3883 -189,7848
-177,4229 -160,5884 -181,5135 -205,9489 -158,8319 -86,9751
-42,6177 42,2670 132,7310 146,6096 126,9047 142,0666
144,4152 65,7632 -51,2071 -156,2698 -249,9710 -310,0365
-259,1020 -139,6489 -49,6381 40,9476 62,3305 -54,1532
-141,1656 -105,7842 -34,1941 26,9879 36,9868 29,3878
38,1205 -9,9535 -58,9160 -64,7460 -45,0203 4,2775
22,1953 -14,0531 -46,9678 -24,9153 -37,0149 -112,4739
-149,0629 -170,6964 -208,7030 -279,6514 -286,0887 -128,4045
-19,5513 -18,6745 -2,5113 27,5908 57,4505 40,0968
-1,1685 -6,1594 22,6846 71,8049 105,1991 138,6664
199,2951 256,8588 276,6691 268,0139 267,9941 255,4970
195,6668 107,1430 13,9150 -22,4794 48,6502 173,0023
273,7717 330,6595 367,1980 389,0280 366,3851 270,5679
169,4552 147,1332 158,6019 150,0675 98,9195 9,3323
-91,7957 -200,1523 -265,9432 -267,9321 -217,8908 -111,5249
-47,0886 -81,8951 -121,9672 -149,3738 -204,3078 -261,7598
-305,8991 -296,3679 -218,0737 -87,1734 50,4778 114,0400
116,2767 50,7139 -50,4222 -116,6402 -135,7638 -88,6559
1,7811 100,1388 160,0466 186,8043 183,5050 186,4654
180,4174 113,1883 109,5844 103,8960 63,1037 53,1391
30,7873 40,9809 56,9782 72,3807 133,4637 197,8459
218,9648 223,7970 248,3072 289,2048 277,0620 137,8687
-53,2980 -174,3400 -191,8784 -193,8655 -216,8707 -208,0659
-151,8549 -72,1368 2,8995 56,8286 85,6375 103,7031
68,2289 -4,7193 -96,4865 -238,9043 -368,7177 -413,2284
-377,0584 -330,6652 -290,1271 -226,6974 -157,0954 -116,9863
-100,5185 -91,1604 -90,1204 -69,2259 -18,0203 79,0289
192,7612 256,3765 260,2193 161,8264 -9,7030 -122,7468
-133,0395 -89,7356 -5,4295 129,6731 237,0565 271,9431
260,7240 216,8712 165,9215 115,4422 57,4423 -11,2955
-90,2439 -121,9799 -128,9462 -192,7922 -282,6516 -349,0489
-348,8083 -306,8337 -265,3728 -213,3226 -162,9623 -120,2775
-80,0287 -25,6093 55,0649 145,6623 233,1551 309,6379
317,3891 240,1963 90,1092 -77,5225 -185,3690 -253,1001
-222,1959 -103,7701 46,8639 224,3116 318,7346 298,6575
190,3433 54,0267 -23,5050 -36,4175 15,2180 113,6920
191,0300 228,1796 252,6473 238,8426 183,7464 132,3389
101,6167 89,2089 85,0219 91,7062 106,0678 114,8302
123,2006 135,3940 134,7703 95,3380 31,4001 -44,6942
-151,3746 -262,9017 -314,6147 -293,2678 -293,8762 -326,2151
-293,2751 -240,8401 -215,6568 -142,5184 -11,8488 105,3099
203,5811 303,0437 344,3938 280,4423 151,7238 22,0636
-114,6135 -263,3171 -365,8601 -387,9658 -342,1710 -274,1875
-210,4334 -162,0810 -147,7590 -173,5650 -179,1255 -45,9370
179,2611 303,5682 279,2581 261,5945 224,4440 0,0480
-188,9270 -175,0214 -160,4912 -188,8558 -189,5047 -124,7980
21,7716 174,2639 261,9540 293,3007 293,9081 259,8822
210,4167 124,9192 -41,1336 -253,8374 -392,7539 -398,5847
-316,3793 -169,3699 -23,3230 60,2017 45,7301 11,8646
63,5867 72,9745 52,4315 129,4586 233,7336 313,7797
354,6486 305,1705 138,4833 -92,2690 -236,1431 -245,8806
-204,7928 -155,7707 -117,9840 -74,5630 3,9006 52,6487
-0,9326 -83,5949 -83,2506 -38,1894 -52,1238 -102,0128
-134,5888 -181,7048 -219,4338 -195,7997 -129,3320 -58,5278
7,6019 84,3216 153,2072 141,2427 48,9258 -22,9761
-40,8335 -42,0474 -52,4068 -98,4269 -161,3303 -167,9352
-130,4838 -117,7623 -131,0263 -119,6251 -70,3895 -25,9708
29,4264 126,1079 233,4660 290,0762 256,4152 215,7870
187,6161 123,8837 124,9922 193,2514 244,3444 250,3347
165,6826 27,5708 -125,3712 -303,9229 -417,6453 -353,2054
-165,1289 66,2686 251,9019 376,8119 441,1103 389,8245
281,2759 119,7237 31,5523 -14,0452 -84,2978 -134,5762
-189,4966 -224,0715 -271,5633 -204,2233 -68,4213 16,7878
82,0902 106,3336 98,4354 43,2148 -49,8600 -147,0913
-237,4300 -326,4675 -389,3681 -376,0213 -322,2796 -276,4757
-227,1914 -154,5524 -53,7605 42,2469 111,8598 144,1167
176,8557 240,8621 309,5107 368,8110 390,0155 367,7214
341,6820 336,5685 337,2471 318,1199 244,5363 144,0545
76,4711 34,3154 6,1860 -34,4125 -67,7256 -34,4305
31,3558 74,8544 88,3527 103,5587 114,8400 29,6147
-186,5083 -428,5968 -574,0814 -592,7643 -512,0972 -368,2060
-217,1151 -130,1405 -107,6734 -119,2791 -136,2101 -81,3176
-7,2177 16,0831 29,1533 -13,0530 -92,2907 -141,9887
-188,8451 -180,1142 -84,0149 53,2371 168,4654 204,9481
250,8394 360,8506 485,4875 542,3933 474,0837 342,5146
206,7091 117,3769 72,2012 48,5869 48,0489 48,6500
65,3565 78,4691 71,9984 61,3408 26,3000 -27,1145
-74,4414 -154,7426 -298,6293 -460,3373 -555,5327 -526,7455
-437,1961 -334,0440 -176,4076 38,1365 215,6661 306,1437
378,7323 414,7617 357,7874 252,7977 209,9065 211,3980
143,9192 38,2122 -15,6638 -4,4708 -15,1600 -75,4463
-79,3972 11,8996 141,5959 292,2363 378,4358 310,5812
202,5878 118,3547 75,7501 104,5122 90,5236 34,4244
17,6700 16,9581 29,9120 53,3488 55,7713 33,3069
10,0629 18,1837 73,3718 146,3696 178,1281 138,8734
46,2365 -46,8933 -137,0104 -265,6758 -399,8493 -478,0948
-475,3001 -414,7012 -327,5806 -214,8792 -103,2476 -21,1792
61,2758 139,6223 173,6113 167,0910 114,0442 38,7862
-41,9565 -129,8080 -231,4641 -334,7353 -325,1870 -233,3468
-172,2693 -126,0797 -59,3066 2,4667 13,8165 25,3267
48,8545 32,3471 -26,0845 -96,9942 -141,1245 -172,7532
-218,5363 -250,1399 -231,6327 -181,5778 -89,8845 34,7839
108,2692 130,6687 156,1405 179,6602 181,9087 175,6552
180,7236 241,6713 260,5219 144,0463 3,1552 -92,1150
-165,5021 -234,5175 -185,3341 -21,1125 105,4791 184,8781
240,2916 261,5636 248,3592 212,5317 191,3867 185,3215
127,6281 24,5723 -45,2406 -56,1803 -47,0484 -37,3911
-19,2029 -2,3683 -0,2145 -5,1026 28,1871 77,3731
73,8503 -10,4954 -124,4729 -203,1924 -282,6509 -306,9412
-199,0036 -41,3888 57,9900 58,7722 20,7161 -18,0313
-64,9302 -95,8298 -117,5597 -128,2183 -94,6051 -38,3283
-4,1708 6,7041 26,6072 83,0895 141,5382 157,2038
153,8532 168,1445 170,2380 105,6476 11,6751 -15,5999
28,9891 83,6690 121,4944 149,1696 153,0556 86,4798
-36,0465 -176,0634 -294,7776 -336,8703 -290,2157 -180,6406
-61,7669 48,8202 139,6384 193,7766 194,4859 109,2101
-42,1341 -192,1878 -276,5056 -309,9080 -323,0250 -345,9481
-311,5581 -121,0123 124,8983 330,4645 421,1773 434,1826
470,6319 469,1530 423,2834 363,3666 303,0182 258,2399
202,9662 154,6786 139,1481 100,8847 22,0850 -58,0873
-143,4100 -214,0601 -254,3297 -221,0328 -89,3322 86,0193
236,3244 263,3128 199,7282 106,4397 -40,9482 -214,2386
-317,9990 -315,3666 -326,0513 -391,8809 -425,2607 -353,8779
-226,4643 -176,4564 -173,3914 -155,7592 -151,5605 -172,3622
-191,0307 -178,3390 -180,6398 -189,3436 -168,8231 -150,3250
-137,4017 -96,8149 -59,9195 -85,9788 -134,1591 -176,5871
-169,7424 -68,2142 53,3595 145,4638 215,4740 266,5418
